File: Example_XRD_data.txt
30.0000 6.3545 1.0000
30.0832 4.0918 1.0000
30.1664 5.2170 1.0000
30.2496 0.9825 1.0000
30.3328 5.9470 1.0000
30.4160 5.6811 1.0000
30.4992 5.2701 1.0000
30.5824 7.9724 1.0000
30.6656 5.2609 1.0000
30.7488 4.3070 1.0000
30.8320 4.5941 1.0000
30.9152 1.9990 1.0000
30.9984 4.2457 1.0000
31.0816 3.0263 1.0000
31.1648 6.2721 1.0000
31.2480 2.9485 1.0000
31.3312 2.9864 1.0000
31.4144 3.3222 1.0000
31.4976 5.8994 1.0000
31.5808 4.3116 1.0000
31.6640 4.9408 1.0000
31.7472 3.9402 1.0000
31.8304 5.2671 1.0000
31.9136 11.3842 1.0000
31.9968 5.0787 1.0000
32.0800 2.3050 1.0000
32.1632 5.2965 1.0000
32.2464 8.2437 1.0000
32.3296 0.9949 1.0000
32.4128 6.5584 1.0000
32.4960 6.6133 1.0000
32.5792 4.3493 1.0000
32.6624 2.6000 1.0000
32.7456 5.9094 1.0000
32.8288 6.0545 1.0000
32.9120 2.9776 1.0000
32.9952 7.2566 1.0000
33.0784 6.3407 1.0000
33.1616 10.5145 1.0000
33.2448 7.0072 1.0000
33.3280 4.6610 1.0000
33.4112 3.3311 1.0000
33.4944 1.3486 1.0000
33.5776 2.9472 1.0000
33.6608 7.9378 1.0000
33.7440 4.9834 1.0000
33.8272 3.3538 1.0000
33.9104 6.0107 1.0000
33.9936 4.9245 1.0000
34.0768 5.6247 1.0000
34.1600 5.2633 1.0000
34.2432 3.9435 1.0000
34.3264 3.9597 1.0000
34.4096 6.3428 1.0000
34.4928 12.5157 1.0000
34.5760 3.9207 1.0000
34.6592 4.9122 1.0000
34.7424 5.9569 1.0000
34.8256 5.3456 1.0000
34.9088 4.3347 1.0000
34.9920 4.0004 1.0000
35.0752 3.9227 1.0000
35.1584 5.3249 1.0000
35.2416 6.2545 1.0000
35.3248 5.0071 1.0000
35.4080 2.0127 1.0000
35.4912 6.3048 1.0000
35.5744 5.9462 1.0000
35.6576 3.3562 1.0000
35.7408 9.6239 1.0000
35.8240 5.6218 1.0000
35.9072 6.3557 1.0000
35.9904 6.3100 1.0000
36.0736 4.8723 1.0000
36.1568 9.2642 1.0000
36.2400 12.1627 1.0000
36.3232 7.2470 1.0000
36.4064 5.2573 1.0000
36.4896 4.2757 1.0000
36.5728 5.8926 1.0000
36.6560 7.9137 1.0000
36.7392 9.9096 1.0000
36.8224 2.9392 1.0000
36.9056 8.9902 1.0000
36.9888 8.3264 1.0000
37.0720 6.3597 1.0000
37.1552 7.5405 1.0000
37.2384 8.0163 1.0000
37.3216 8.9012 1.0000
37.4048 5.3567 1.0000
37.4880 9.2594 1.0000
37.5712 9.2111 1.0000
37.6544 4.9847 1.0000
37.7376 10.2698 1.0000
37.8208 10.2786 1.0000
37.9040 14.1898 1.0000
37.9872 11.1210 1.0000
38.0704 29.7710 1.0000
38.1536 55.8863 1.0000
38.2368 293.4002 1.0000
38.3200 917.1954 1.0000
38.4032 1310.59 1.0000
38.4864 937.0968 1.0000
38.5696 334.9153 1.0000
38.6528 48.7103 1.0000
38.7360 19.2070 1.0000
38.8192 10.3254 1.0000
38.9024 10.0368 1.0000
38.9856 6.2067 1.0000
39.0688 10.2927 1.0000
39.1520 2.0050 1.0000
39.2352 6.9466 1.0000
39.3184 4.9883 1.0000
39.4016 11.9742 1.0000
39.4848 1.9915 1.0000
39.5680 4.9561 1.0000
39.6512 8.8875 1.0000
39.7344 6.8902 1.0000
39.8176 5.6387 1.0000
39.9008 7.2624 1.0000
39.9840 6.9502 1.0000
40.0672 3.9918 1.0000
40.1504 4.9546 1.0000
40.2336 9.8722 1.0000
40.3168 3.2601 1.0000
40.4000 9.0244 1.0000
40.4832 6.0212 1.0000
40.5664 8.2831 1.0000
40.6496 5.7140 1.0000
40.7328 4.9775 1.0000
40.8160 9.5722 1.0000
40.8992 7.9071 1.0000
40.9824 8.2106 1.0000
41.0656 3.9929 1.0000
41.1488 3.3183 1.0000
41.2320 4.9305 1.0000
41.3152 4.2535 1.0000
41.3984 5.3677 1.0000
41.4816 3.9160 1.0000
41.5648 4.9330 1.0000
41.6480 1.3247 1.0000
41.7312 6.9895 1.0000
41.8144 16.6026 1.0000
41.8976 4.3311 1.0000
41.9808 2.2871 1.0000
42.0640 0.9737 1.0000
42.1472 7.2706 1.0000
42.2304 2.3381 1.0000
42.3136 8.3343 1.0000
42.3968 4.3320 1.0000
42.4800 3.3316 1.0000
42.5632 1.9616 1.0000
42.6464 6.2514 1.0000
42.7296 7.4732 1.0000
42.8128 4.9892 1.0000
42.8960 4.3157 1.0000
42.9792 4.8976 1.0000
43.0624 6.3442 1.0000
43.1456 14.6456 1.0000
43.2288 8.9082 1.0000
43.3120 6.9639 1.0000
43.3952 5.2804 1.0000
43.4784 9.9788 1.0000
43.5616 11.1282 1.0000
43.6448 7.3550 1.0000
43.7280 6.5209 1.0000
43.8112 5.2144 1.0000
43.8944 6.9213 1.0000
43.9776 6.9046 1.0000
44.0608 6.3035 1.0000
44.1440 7.2703 1.0000
44.2272 6.6128 1.0000
44.3104 13.0034 1.0000
44.3936 28.1672 1.0000
44.4768 136.1591 1.0000
44.5600 386.8640 1.0000
44.6432 608.8232 1.0000
44.7264 484.8551 1.0000
44.8096 182.9957 1.0000
44.8928 32.0230 1.0000
44.9760 10.2972 1.0000
45.0592 9.3790 1.0000
45.1424 6.6170 1.0000
45.2256 3.2789 1.0000
45.3088 8.2943 1.0000
45.3920 4.2662 1.0000
45.4752 7.0535 1.0000
45.5584 5.3752 1.0000
45.6416 5.0304 1.0000
45.7248 2.0000 1.0000
45.8080 5.9699 1.0000
45.8912 4.3291 1.0000
45.9744 6.2753 1.0000
46.0576 3.9776 1.0000
46.1408 3.0068 1.0000
46.2240 3.0154 1.0000
46.3072 6.0254 1.0000
46.3904 10.2909 1.0000
46.4736 5.8667 1.0000
46.5568 2.0634 1.0000
46.6400 5.6575 1.0000
46.7232 2.3171 1.0000
46.8064 3.0347 1.0000
46.8896 6.3231 1.0000
46.9728 4.9793 1.0000
47.0560 4.9570 1.0000
47.1392 5.9660 1.0000
47.2224 6.3422 1.0000
47.3056 6.1036 1.0000
47.3888 5.9265 1.0000
47.4720 4.3134 1.0000
47.5552 8.9014 1.0000
47.6384 5.9472 1.0000
47.7216 4.2962 1.0000
47.8048 1.9080 1.0000
47.8880 5.9962 1.0000
47.9712 5.9989 1.0000
48.0544 5.0046 1.0000
48.1376 3.9209 1.0000
48.2208 4.9580 1.0000
48.3040 4.8803 1.0000
48.3872 7.9863 1.0000
48.4704 0.9949 1.0000
48.5536 5.0703 1.0000
48.6368 3.9410 1.0000
48.7200 2.9399 1.0000
48.8032 4.3659 1.0000
48.8864 4.9941 1.0000
48.9696 3.0092 1.0000
49.0528 2.0183 1.0000
49.1360 2.0555 1.0000
49.2192 7.0162 1.0000
49.3024 7.2638 1.0000
49.3856 4.0375 1.0000
49.4688 2.3167 1.0000
49.5520 3.3475 1.0000
49.6352 2.9581 1.0000
49.7184 5.8756 1.0000
49.8016 2.9748 1.0000
49.8848 3.6467 1.0000
49.9680 7.9244 1.0000
50.0512 3.6626 1.0000
50.1344 5.6592 1.0000
50.2176 5.2599 1.0000
50.3008 2.9366 1.0000
50.3840 1.9729 1.0000
50.4672 3.0170 1.0000
50.5504 4.3499 1.0000
50.6336 6.0101 1.0000
50.7168 3.9989 1.0000
50.8000 5.2377 1.0000
50.8832 6.2629 1.0000
50.9664 3.0446 1.0000
51.0496 2.3435 1.0000
51.1328 5.6433 1.0000
51.2160 2.0035 1.0000
51.2992 3.3034 1.0000
51.3824 2.6802 1.0000
51.4656 11.3186 1.0000
51.5488 3.9701 1.0000
51.6320 7.6022 1.0000
51.7152 5.2639 1.0000
51.7984 1.9781 1.0000
51.8816 4.0632 1.0000
51.9648 1.3170 1.0000
52.0480 6.2664 1.0000
52.1312 3.3625 1.0000
52.2144 0.9933 1.0000
52.2976 1.9857 1.0000
52.3808 5.3775 1.0000
52.4640 6.9213 1.0000
52.5472 4.9681 1.0000
52.6304 2.6695 1.0000
52.7136 1.9606 1.0000
52.7968 9.2705 1.0000
52.8800 4.3262 1.0000
52.9632 7.0476 1.0000
53.0464 1.9577 1.0000
53.1296 2.0136 1.0000
53.2128 6.9455 1.0000
53.2960 0.9935 1.0000
53.3792 0.9802 1.0000
53.4624 4.3084 1.0000
53.5456 4.9189 1.0000
53.6288 4.0329 1.0000
53.7120 1.6598 1.0000
53.7952 3.9755 1.0000
53.8784 0.9842 1.0000
53.9616 5.0397 1.0000
54.0448 4.0057 1.0000
54.1280 4.0066 1.0000
54.2112 4.9673 1.0000
54.2944 4.0158 1.0000
54.3776 4.9123 1.0000
54.4608 3.9675 1.0000
54.5440 1.9865 1.0000
54.6272 3.2579 1.0000
54.7104 3.2298 1.0000
54.7936 3.3454 1.0000
54.8768 2.9468 1.0000
54.9600 2.9833 1.0000
55.0432 0.9796 1.0000
55.1264 7.0010 1.0000
55.2096 4.9161 1.0000
55.2928 3.8903 1.0000
55.3760 2.0247 1.0000
55.4592 4.3324 1.0000
55.5424 3.9923 1.0000
55.6256 6.0220 1.0000
55.7088 4.9448 1.0000
55.7920 6.3482 1.0000
55.8752 7.9301 1.0000
55.9584 5.9685 1.0000
56.0416 5.0034 1.0000
56.1248 3.9296 1.0000
56.2080 5.3534 1.0000
56.2912 2.6198 1.0000
56.3744 0.0000 1.0000
56.4576 2.0531 1.0000
56.5408 3.2982 1.0000
56.6240 4.1463 1.0000
56.7072 7.0635 1.0000
56.7904 4.0183 1.0000
56.8736 2.3315 1.0000
56.9568 3.9949 1.0000
57.0400 5.2699 1.0000
57.1232 5.8641 1.0000
57.2064 4.2812 1.0000
57.2896 2.9213 1.0000
57.3728 8.2440 1.0000
57.4560 4.3576 1.0000
57.5392 2.9833 1.0000
57.6224 4.9700 1.0000
57.7056 4.2344 1.0000
57.7888 1.0224 1.0000
57.8720 7.2835 1.0000
57.9552 7.8481 1.0000
58.0384 5.0607 1.0000
58.1216 1.3201 1.0000
58.2048 6.3705 1.0000
58.2880 6.2655 1.0000
58.3712 1.9852 1.0000
58.4544 5.9363 1.0000
58.5376 5.0740 1.0000
58.6208 0.9729 1.0000
58.7040 5.0434 1.0000
58.7872 8.0094 1.0000
58.8704 7.8550 1.0000
58.9536 5.3288 1.0000
59.0368 6.3837 1.0000
59.1200 6.2593 1.0000
59.2032 2.2928 1.0000
59.2864 1.9897 1.0000
59.3696 8.2017 1.0000
59.4528 3.3259 1.0000
59.5360 4.0321 1.0000
59.6192 4.3311 1.0000
59.7024 8.2978 1.0000
59.7856 2.9777 1.0000
59.8688 1.0110 1.0000
59.9520 6.3353 1.0000
60.0352 2.0105 1.0000
60.1184 5.9458 1.0000
60.2016 1.9839 1.0000
60.2848 2.9476 1.0000
60.3680 1.3009 1.0000
60.4512 1.9821 1.0000
60.5344 5.2911 1.0000
60.6176 4.2914 1.0000
60.7008 6.2990 1.0000
60.7840 1.0413 1.0000
60.8672 3.9812 1.0000
60.9504 5.9968 1.0000
61.0336 3.9925 1.0000
61.1168 8.3060 1.0000
61.2000 3.2630 1.0000
61.2832 6.9881 1.0000
61.3664 5.3672 1.0000
61.4496 4.2745 1.0000
61.5328 7.2376 1.0000
61.6160 3.3373 1.0000
61.6992 6.0239 1.0000
61.7824 7.3211 1.0000
61.8656 1.9703 1.0000
61.9488 4.0071 1.0000
62.0320 6.2194 1.0000
62.1152 4.9636 1.0000
62.1984 7.6682 1.0000
62.2816 8.0310 1.0000
62.3648 5.9984 1.0000
62.4480 8.4365 1.0000
62.5312 4.0243 1.0000
62.6144 7.0391 1.0000
62.6976 4.0082 1.0000
62.7808 3.0381 1.0000
62.8640 3.9076 1.0000
62.9472 3.9713 1.0000
63.0304 4.9425 1.0000
63.1136 10.5437 1.0000
63.1968 3.9591 1.0000
63.2800 3.6650 1.0000
63.3632 4.2536 1.0000
63.4464 4.0218 1.0000
63.5296 4.3066 1.0000
63.6128 5.2310 1.0000
63.6960 5.3529 1.0000
63.7792 1.0087 1.0000
63.8624 4.0398 1.0000
63.9456 6.8973 1.0000
64.0288 10.3238 1.0000
64.1120 8.9187 1.0000
64.1952 6.6479 1.0000
64.2784 4.3742 1.0000
64.3616 7.3261 1.0000
64.4448 9.3798 1.0000
64.5280 9.9893 1.0000
64.6112 8.6299 1.0000
64.6944 10.6757 1.0000
64.7776 16.6262 1.0000
64.8608 92.8020 1.0000
64.9440 260.5051 1.0000
65.0272 361.6270 1.0000
65.1104 288.0491 1.0000
65.1936 133.5564 1.0000
65.2768 38.6907 1.0000
65.3600 11.5052 1.0000
65.4432 8.9414 1.0000
65.5264 10.0677 1.0000
65.6096 3.2646 1.0000
65.6928 6.2943 1.0000
65.7760 4.9993 1.0000
65.8592 1.9771 1.0000
65.9424 6.9070 1.0000
66.0256 6.3555 1.0000
66.1088 5.9827 1.0000
66.1920 4.6688 1.0000
66.2752 8.2949 1.0000
66.3584 6.9453 1.0000
66.4416 5.0431 1.0000
66.5248 1.3048 1.0000
66.6080 5.9783 1.0000
66.6912 6.9354 1.0000
66.7744 2.9998 1.0000
66.8576 6.9136 1.0000
66.9408 3.9966 1.0000
67.0240 7.2606 1.0000
67.1072 3.6248 1.0000
67.1904 4.2271 1.0000
67.2736 9.1052 1.0000
67.3568 7.3106 1.0000
67.4400 5.9192 1.0000
67.5232 3.3384 1.0000
67.6064 6.3493 1.0000
67.6896 3.9851 1.0000
67.7728 7.0540 1.0000
67.8560 7.0392 1.0000
67.9392 6.9439 1.0000
68.0224 5.9788 1.0000
68.1056 3.6462 1.0000
68.1888 4.9253 1.0000
68.2720 7.9965 1.0000
68.3552 5.9797 1.0000
68.4384 5.0438 1.0000
68.5216 6.2572 1.0000
68.6048 6.9494 1.0000
68.6880 6.9155 1.0000
68.7712 7.3545 1.0000
68.8544 4.0009 1.0000
68.9376 3.9691 1.0000
69.0208 5.3305 1.0000
69.1040 5.9066 1.0000
69.1872 6.8820 1.0000
69.2704 7.4423 1.0000
69.3536 4.9800 1.0000
69.4368 5.3033 1.0000
69.5200 4.9405 1.0000
69.6032 4.1772 1.0000
69.6864 4.9618 1.0000
69.7696 3.9853 1.0000
69.8528 3.9550 1.0000
69.9360 5.2742 1.0000
70.0192 7.6091 1.0000
70.1024 5.0038 1.0000
70.1856 1.9908 1.0000
70.2688 5.0021 1.0000
70.3520 7.0400 1.0000
70.4352 6.0266 1.0000
70.5184 0.9868 1.0000
70.6016 4.5672 1.0000
70.6848 5.0288 1.0000
70.7680 6.9963 1.0000
70.8512 3.9490 1.0000
70.9344 3.0271 1.0000
71.0176 3.3153 1.0000
71.1008 4.9571 1.0000
71.1840 7.2888 1.0000
71.2672 4.9857 1.0000
71.3504 1.9402 1.0000
71.4336 7.2754 1.0000
71.5168 7.2661 1.0000
71.6000 7.8919 1.0000
71.6832 5.0030 1.0000
71.7664 1.6674 1.0000
71.8496 6.0413 1.0000
71.9328 5.0021 1.0000
72.0160 1.3143 1.0000
72.0992 5.3026 1.0000
72.1824 10.5311 1.0000
72.2656 6.9924 1.0000
72.3488 2.9951 1.0000
72.4320 2.9660 1.0000
72.5152 4.3625 1.0000
72.5984 3.9331 1.0000
72.6816 6.9105 1.0000
72.7648 4.2998 1.0000
72.8480 4.9438 1.0000
72.9312 4.0320 1.0000
73.0144 8.9995 1.0000
73.0976 4.0159 1.0000
73.1808 0.9840 1.0000
73.2640 6.3736 1.0000
73.3472 4.0330 1.0000
73.4304 4.0375 1.0000
73.5136 6.2312 1.0000
73.5968 6.2596 1.0000
73.6800 3.6200 1.0000
73.7632 5.2310 1.0000
73.8464 4.9252 1.0000
73.9296 3.6238 1.0000
74.0128 4.3625 1.0000
74.0960 2.9419 1.0000
74.1792 4.9998 1.0000
74.2624 5.3907 1.0000
74.3456 4.9866 1.0000
74.4288 4.0240 1.0000
74.5120 10.9855 1.0000
74.5952 6.9839 1.0000
74.6784 1.9776 1.0000
74.7616 5.9384 1.0000
74.8448 4.3249 1.0000
74.9280 5.0275 1.0000
75.0112 2.9729 1.0000
75.0944 9.3620 1.0000
75.1776 5.9937 1.0000
75.2608 7.9439 1.0000
75.3440 3.3053 1.0000
75.4272 7.9944 1.0000
75.5104 7.8702 1.0000
75.5936 3.2726 1.0000
75.6768 5.0637 1.0000
75.7600 5.2606 1.0000
75.8432 3.9943 1.0000
75.9264 4.0153 1.0000
76.0096 2.9480 1.0000
76.0928 2.9701 1.0000
76.1760 10.2937 1.0000
76.2592 6.9363 1.0000
76.3424 4.0455 1.0000
76.4256 2.3068 1.0000
76.5088 5.9699 1.0000
76.5920 4.2879 1.0000
76.6752 7.9299 1.0000
76.7584 4.2943 1.0000
76.8416 2.9502 1.0000
76.9248 4.0280 1.0000
77.0080 4.3892 1.0000
77.0912 9.0564 1.0000
77.1744 6.0349 1.0000
77.2576 8.2904 1.0000
77.3408 6.7055 1.0000
77.4240 14.9546 1.0000
77.5072 8.0308 1.0000
77.5904 7.3180 1.0000
77.6736 19.0000 1.0000
77.7568 10.9863 1.0000
77.8400 16.1817 1.0000
77.9232 49.9897 1.0000
78.0064 121.8898 1.0000
78.0896 311.2078 1.0000
78.1728 398.7548 1.0000
78.2560 327.6751 1.0000
78.3392 141.4795 1.0000
78.4224 53.4675 1.0000
78.5056 21.4787 1.0000
78.5888 10.1865 1.0000
78.6720 6.3193 1.0000
78.7552 7.0119 1.0000
78.8384 7.5700 1.0000
78.9216 10.7437 1.0000
79.0048 5.9854 1.0000
79.0880 8.9296 1.0000
79.1712 5.3092 1.0000
79.2544 2.9259 1.0000
79.3376 5.2900 1.0000
79.4208 4.2804 1.0000
79.5040 7.3080 1.0000
79.5872 8.8562 1.0000
79.6704 8.0342 1.0000
79.7536 0.9913 1.0000
79.8368 8.0183 1.0000
79.9200 3.6139 1.0000
80.0032 5.0348 1.0000
80.0864 6.3399 1.0000
80.1696 5.2840 1.0000
80.2528 11.0037 1.0000
80.3360 6.9382 1.0000
80.4192 1.0238 1.0000
80.5024 5.0245 1.0000
80.5856 6.5093 1.0000
80.6688 4.9795 1.0000
80.7520 8.9792 1.0000
80.8352 3.2986 1.0000
80.9184 6.9766 1.0000
81.0016 9.3275 1.0000
81.0848 7.1196 1.0000
81.1680 6.5823 1.0000
81.2512 4.5315 1.0000
81.3344 5.9052 1.0000
81.4176 4.0543 1.0000
81.5008 4.9576 1.0000
81.5840 8.5300 1.0000
81.6672 6.2803 1.0000
81.7504 5.0100 1.0000
81.8336 5.6770 1.0000
81.9168 5.8990 1.0000
82.0000 7.9468 1.0000
82.0832 11.3536 1.0000
82.1664 27.1727 1.0000
82.2496 54.4253 1.0000
82.3328 92.5605 1.0000
82.4160 120.3128 1.0000
82.4992 73.9325 1.0000
82.5824 26.2688 1.0000
82.6656 6.5969 1.0000
82.7488 11.1776 1.0000
82.8320 6.7106 1.0000
82.9152 3.3634 1.0000
82.9984 7.6700 1.0000
83.0816 3.3045 1.0000
83.1648 8.0056 1.0000
83.2480 4.3186 1.0000
83.3312 4.9899 1.0000
83.4144 7.5597 1.0000
83.4976 2.9884 1.0000
83.5808 4.9349 1.0000
83.6640 5.9967 1.0000
83.7472 5.6889 1.0000
83.8304 5.3840 1.0000
83.9136 3.3243 1.0000
83.9968 6.1947 1.0000
84.0800 4.9795 1.0000
84.1632 5.0281 1.0000
84.2464 5.3725 1.0000
84.3296 4.9874 1.0000
84.4128 5.0165 1.0000
84.4960 4.2957 1.0000
84.5792 5.9800 1.0000
84.6624 4.0305 1.0000
84.7456 5.3918 1.0000
84.8288 3.6602 1.0000
84.9120 7.2987 1.0000
84.9952 3.9678 1.0000
85.0784 2.9243 1.0000
85.1616 3.3191 1.0000
85.2448 3.3691 1.0000
85.3280 5.4239 1.0000
85.4112 1.9703 1.0000
85.4944 8.6396 1.0000
85.5776 3.0263 1.0000
85.6608 5.0101 1.0000
85.7440 7.2844 1.0000
85.8272 3.0724 1.0000
85.9104 4.2791 1.0000
85.9936 0.9925 1.0000
86.0768 3.8917 1.0000
86.1600 7.9257 1.0000
86.2432 2.9913 1.0000
86.3264 6.9593 1.0000
86.4096 1.2997 1.0000
86.4928 5.3845 1.0000
86.5760 5.9561 1.0000
86.6592 3.0778 1.0000
86.7424 1.9490 1.0000
86.8256 3.9587 1.0000
86.9088 4.6563 1.0000
86.9920 0.9560 1.0000
87.0752 7.2604 1.0000
87.1584 0.9871 1.0000
87.2416 1.9820 1.0000
87.3248 7.0174 1.0000
87.4080 2.9995 1.0000
87.4912 4.2939 1.0000
87.5744 6.0510 1.0000
87.6576 2.3913 1.0000
87.7408 5.0035 1.0000
87.8240 4.9945 1.0000
87.9072 5.0388 1.0000
87.9904 4.6530 1.0000
88.0736 2.6719 1.0000
88.1568 2.9619 1.0000
88.2400 4.9637 1.0000
88.3232 6.9767 1.0000
88.4064 3.0042 1.0000
88.4896 2.9682 1.0000
88.5728 3.5577 1.0000
88.6560 4.0019 1.0000
88.7392 4.2521 1.0000
88.8224 6.9283 1.0000
88.9056 2.3426 1.0000
88.9888 1.0048 1.0000
89.0720 6.9639 1.0000
89.1552 5.2420 1.0000
89.2384 4.6314 1.0000
89.3216 0.9757 1.0000
89.4048 1.9572 1.0000
89.4880 2.0030 1.0000
89.5712 4.0041 1.0000
89.6544 6.8948 1.0000
89.7376 4.0657 1.0000
89.8208 5.9824 1.0000
89.9040 2.0012 1.0000
89.9872 5.9983 1.0000
90.0704 3.6562 1.0000
90.1536 3.3363 1.0000
90.2368 6.2641 1.0000
90.3200 5.0377 1.0000
90.4032 3.9658 1.0000
90.4864 4.9859 1.0000
90.5696 5.0156 1.0000
90.6528 5.9572 1.0000
90.7360 0.3192 1.0000
90.8192 5.3221 1.0000
90.9024 5.6430 1.0000
90.9856 5.2533 1.0000
91.0688 4.9803 1.0000
91.1520 5.9396 1.0000
91.2352 7.0078 1.0000
91.3184 5.9275 1.0000
91.4016 5.7837 1.0000
91.4848 5.9471 1.0000
91.5680 5.0255 1.0000
91.6512 5.3883 1.0000
91.7344 3.6441 1.0000
91.8176 4.2574 1.0000
91.9008 3.0151 1.0000
91.9840 5.3671 1.0000
92.0672 3.2759 1.0000
92.1504 1.9777 1.0000
92.2336 4.9564 1.0000
92.3168 4.2610 1.0000
92.4000 3.9530 1.0000
92.4832 2.9935 1.0000
92.5664 5.6596 1.0000
92.6496 4.0084 1.0000
92.7328 5.3605 1.0000
92.8160 6.0349 1.0000
92.8992 1.6405 1.0000
92.9824 6.0097 1.0000
93.0656 5.0236 1.0000
93.1488 2.0003 1.0000
93.2320 6.2854 1.0000
93.3152 5.0024 1.0000
93.3984 3.9889 1.0000
93.4816 6.0186 1.0000
93.5648 6.2590 1.0000
93.6480 2.9789 1.0000
93.7312 5.8986 1.0000
93.8144 5.2970 1.0000
93.8976 1.0090 1.0000
93.9808 1.0001 1.0000
94.0640 2.9401 1.0000
94.1472 3.9562 1.0000
94.2304 1.3042 1.0000
94.3136 3.9859 1.0000
94.3968 5.9595 1.0000
94.4800 3.9673 1.0000
94.5632 2.0423 1.0000
94.6464 1.9832 1.0000
94.7296 4.9352 1.0000
94.8128 2.9282 1.0000
94.8960 5.9317 1.0000
94.9792 2.6204 1.0000
95.0624 8.1876 1.0000
95.1456 1.9718 1.0000
95.2288 1.9916 1.0000
95.3120 6.1210 1.0000
95.3952 4.5892 1.0000
95.4784 0.0000 1.0000
95.5616 2.9334 1.0000
95.6448 1.2720 1.0000
95.7280 4.2854 1.0000
95.8112 0.9742 1.0000
95.8944 3.9581 1.0000
95.9776 1.9917 1.0000
96.0608 4.0078 1.0000
96.1440 5.9405 1.0000
96.2272 4.3085 1.0000
96.3104 4.9451 1.0000
96.3936 3.9357 1.0000
96.4768 2.9719 1.0000
96.5600 8.0665 1.0000
96.6432 6.3351 1.0000
96.7264 3.9818 1.0000
96.8096 1.9940 1.0000
96.8928 1.0377 1.0000
96.9760 2.9513 1.0000
97.0592 2.9608 1.0000
97.1424 9.2205 1.0000
97.2256 3.0848 1.0000
97.3088 2.9789 1.0000
97.3920 4.0011 1.0000
97.4752 3.2604 1.0000
97.5584 6.0005 1.0000
97.6416 4.9446 1.0000
97.7248 4.8650 1.0000
97.8080 6.3186 1.0000
97.8912 3.0850 1.0000
97.9744 1.9584 1.0000
98.0576 2.9730 1.0000
98.1408 3.3508 1.0000
98.2240 3.6582 1.0000
98.3072 10.2757 1.0000
98.3904 4.9241 1.0000
98.4736 6.9562 1.0000
98.5568 4.9602 1.0000
98.6400 5.9467 1.0000
98.7232 8.9845 1.0000
98.8064 13.8988 1.0000
98.8896 28.0888 1.0000
98.9728 51.4460 1.0000
99.0560 52.7006 1.0000
99.1392 24.7216 1.0000
99.2224 17.7826 1.0000
99.3056 8.9001 1.0000
99.3888 6.5798 1.0000
99.4720 3.6072 1.0000
99.5552 7.7083 1.0000
99.6384 3.0372 1.0000
99.7216 9.2223 1.0000
99.8048 4.9715 1.0000
99.8880 8.9154 1.0000
99.9712 4.3277 1.0000
100.0544 6.2506 1.0000
100.1376 2.2927 1.0000
100.2208 2.9931 1.0000
100.3040 2.9840 1.0000
100.3872 9.2145 1.0000
100.4704 4.9798 1.0000
100.5536 2.9350 1.0000
100.6368 4.0038 1.0000
100.7200 9.3633 1.0000
100.8032 5.2669 1.0000
100.8864 7.2627 1.0000
100.9696 3.9855 1.0000
101.0528 4.3176 1.0000
101.1360 7.0002 1.0000
101.2192 4.9450 1.0000
101.3024 1.0083 1.0000
101.3856 3.9930 1.0000
101.4688 6.3734 1.0000
101.5520 1.6317 1.0000
101.6352 1.9873 1.0000
101.7184 5.9885 1.0000
101.8016 6.3136 1.0000
101.8848 5.0360 1.0000
101.9680 4.0293 1.0000
102.0512 2.9611 1.0000
102.1344 3.3423 1.0000
102.2176 2.2684 1.0000
102.3008 8.0368 1.0000
102.3840 5.2734 1.0000
102.4672 7.6376 1.0000
102.5504 2.6252 1.0000
102.6336 7.9619 1.0000
102.7168 2.9336 1.0000
102.8000 2.1224 1.0000
102.8832 5.0722 1.0000
102.9664 1.3358 1.0000
103.0496 1.9896 1.0000
103.1328 2.3102 1.0000
103.2160 0.0000 1.0000
103.2992 4.2688 1.0000
103.3824 4.0579 1.0000
103.4656 2.0247 1.0000
103.5488 2.9406 1.0000
103.6320 5.0049 1.0000
103.7152 7.3200 1.0000
103.7984 2.9970 1.0000
103.8816 4.0137 1.0000
103.9648 7.2925 1.0000
104.0480 5.2812 1.0000
104.1312 1.3335 1.0000
104.2144 4.9962 1.0000
104.2976 3.0019 1.0000
104.3808 3.0189 1.0000
104.4640 3.2662 1.0000
104.5472 0.3178 1.0000
104.6304 7.3300 1.0000
104.7136 1.9517 1.0000
104.7968 2.0205 1.0000
104.8800 1.0266 1.0000
104.9632 3.9357 1.0000
105.0464 3.6312 1.0000
105.1296 2.6361 1.0000
105.2128 5.4055 1.0000
105.2960 9.0502 1.0000
105.3792 3.0082 1.0000
105.4624 2.0233 1.0000
105.5456 5.2760 1.0000
105.6288 4.9401 1.0000
105.7120 5.9430 1.0000
105.7952 0.3289 1.0000
105.8784 3.9696 1.0000
105.9616 4.9565 1.0000
106.0448 0.9783 1.0000
106.1280 6.0172 1.0000
106.2112 3.9874 1.0000
106.2944 3.6650 1.0000
106.3776 1.3061 1.0000
106.4608 8.9948 1.0000
106.5440 4.0415 1.0000
106.6272 6.2293 1.0000
106.7104 5.0414 1.0000
106.7936 6.2189 1.0000
106.8768 1.9778 1.0000
106.9600 2.0127 1.0000
107.0432 4.2615 1.0000
107.1264 4.9806 1.0000
107.2096 7.3259 1.0000
107.2928 1.9606 1.0000
107.3760 3.6443 1.0000
107.4592 3.3130 1.0000
107.5424 3.9800 1.0000
107.6256 4.9481 1.0000
107.7088 5.0211 1.0000
107.7920 4.9178 1.0000
107.8752 2.2991 1.0000
107.9584 7.0699 1.0000
108.0416 6.0108 1.0000
108.1248 3.2231 1.0000
108.2080 8.3019 1.0000
108.2912 9.0692 1.0000
108.3744 4.6467 1.0000
108.4576 5.2962 1.0000
108.5408 5.8807 1.0000
108.6240 10.4396 1.0000
108.7072 4.9523 1.0000
108.7904 7.3183 1.0000
108.8736 3.9990 1.0000
108.9568 4.0105 1.0000
109.0400 5.2523 1.0000
109.1232 6.3004 1.0000
109.2064 5.3227 1.0000
109.2896 8.3205 1.0000
109.3728 8.2123 1.0000
109.4560 7.9617 1.0000
109.5392 8.0568 1.0000
109.6224 2.0057 1.0000
109.7056 7.9948 1.0000
109.7888 9.3374 1.0000
109.8720 2.9667 1.0000
109.9552 2.9691 1.0000
110.0384 6.9875 1.0000
110.1216 5.0147 1.0000
110.2048 6.0310 1.0000
110.2880 5.0055 1.0000
110.3712 5.2864 1.0000
110.4544 4.0527 1.0000
110.5376 2.9612 1.0000
110.6208 6.0832 1.0000
110.7040 2.3187 1.0000
110.7872 7.0178 1.0000
110.8704 6.3737 1.0000
110.9536 7.9481 1.0000
111.0368 4.9681 1.0000
111.1200 7.0375 1.0000
111.2032 12.1848 1.0000
111.2864 6.6570 1.0000
111.3696 7.0393 1.0000
111.4528 5.9490 1.0000
111.5360 12.5359 1.0000
111.6192 14.3139 1.0000
111.7024 22.9329 1.0000
111.7856 50.0480 1.0000
111.8688 98.4306 1.0000
111.9520 155.3184 1.0000
112.0352 145.6961 1.0000
112.1184 88.5632 1.0000
112.2016 31.4457 1.0000
112.2848 19.1162 1.0000
112.3680 15.2099 1.0000
112.4512 6.1937 1.0000
112.5344 5.9572 1.0000
112.6176 9.2483 1.0000
112.7008 7.3602 1.0000
112.7840 5.9657 1.0000
112.8672 7.2629 1.0000
112.9504 5.3230 1.0000
113.0336 9.1992 1.0000
113.1168 7.5318 1.0000
113.2000 6.9521 1.0000
113.2832 12.3762 1.0000
113.3664 6.2798 1.0000
113.4496 3.6201 1.0000
113.5328 4.0872 1.0000
113.6160 3.9302 1.0000
113.6992 8.5882 1.0000
113.7824 3.7235 1.0000
113.8656 5.5681 1.0000
113.9488 4.9686 1.0000
114.0320 4.9524 1.0000
114.1152 7.3314 1.0000
114.1984 6.6008 1.0000
114.2816 6.2811 1.0000
114.3648 4.3278 1.0000
114.4480 4.6212 1.0000
114.5312 5.9828 1.0000
114.6144 6.9929 1.0000
114.6976 4.9760 1.0000
114.7808 10.6102 1.0000
114.8640 7.9980 1.0000
114.9472 1.9369 1.0000
115.0304 7.2175 1.0000
115.1136 8.2894 1.0000
115.1968 4.9712 1.0000
115.2800 4.9968 1.0000
115.3632 7.9375 1.0000
115.4464 6.9879 1.0000
115.5296 10.6682 1.0000
115.6128 4.0273 1.0000
115.6960 5.9597 1.0000
115.7792 6.9609 1.0000
115.8624 8.0476 1.0000
115.9456 2.7102 1.0000
116.0288 10.5804 1.0000
116.1120 11.6383 1.0000
116.1952 17.2002 1.0000
116.2784 36.8354 1.0000
116.3616 62.5296 1.0000
116.4448 110.9905 1.0000
116.5280 133.1408 1.0000
116.6112 100.0691 1.0000
116.6944 59.4416 1.0000
116.7776 31.2337 1.0000
116.8608 14.9175 1.0000
116.9440 14.6282 1.0000
117.0272 7.2695 1.0000
117.1104 12.9009 1.0000
117.1936 7.9230 1.0000
117.2768 9.0094 1.0000
117.3600 10.8828 1.0000
117.4432 6.2975 1.0000
117.5264 8.0115 1.0000
117.6096 5.9138 1.0000
117.6928 6.9806 1.0000
117.7760 3.6045 1.0000
117.8592 5.0368 1.0000
117.9424 2.9376 1.0000
118.0256 5.6430 1.0000
118.1088 9.3447 1.0000
118.1920 6.9603 1.0000
118.2752 4.9936 1.0000
118.3584 8.0752 1.0000
118.4416 5.3805 1.0000
118.5248 7.5682 1.0000
118.6080 5.2436 1.0000
118.6912 6.7153 1.0000
118.7744 11.3092 1.0000
118.8576 4.9875 1.0000
118.9408 13.0691 1.0000
119.0240 4.3108 1.0000
119.1072 7.2251 1.0000
119.1904 3.9567 1.0000
119.2736 3.3643 1.0000
119.3568 5.3357 1.0000
119.4400 3.2831 1.0000
119.5232 4.3255 1.0000
119.6064 2.9821 1.0000
119.6896 4.6767 1.0000
119.7728 9.5782 1.0000
119.8560 3.0442 1.0000
119.9392 5.9526 1.0000
120.0224 5.6300 1.0000
120.1056 10.2547 1.0000
120.1888 4.3600 1.0000
120.2720 4.9702 1.0000
120.3552 7.9829 1.0000
120.4384 5.9925 1.0000
120.5216 4.6082 1.0000
120.6048 3.9507 1.0000
120.6880 7.9656 1.0000
120.7712 8.0000 1.0000
120.8544 0.9783 1.0000
120.9376 4.9768 1.0000
121.0208 7.8942 1.0000
121.1040 8.3163 1.0000
121.1872 4.0038 1.0000
121.2704 5.9112 1.0000
121.3536 4.9925 1.0000
121.4368 8.0544 1.0000
121.5200 6.9692 1.0000
121.6032 6.2879 1.0000
121.6864 6.3087 1.0000
121.7696 6.9984 1.0000
121.8528 3.9971 1.0000
121.9360 3.4016 1.0000
122.0192 1.3379 1.0000
122.1024 9.0353 1.0000
122.1856 4.0026 1.0000
122.2688 9.2993 1.0000
122.3520 4.9870 1.0000
122.4352 8.3248 1.0000
122.5184 6.0078 1.0000
122.6016 11.3624 1.0000
122.6848 5.0508 1.0000
122.7680 3.9887 1.0000
122.8512 3.2432 1.0000
122.9344 5.0619 1.0000
123.0176 4.9607 1.0000
123.1008 2.9989 1.0000
123.1840 3.3317 1.0000
123.2672 2.9979 1.0000
123.3504 3.9489 1.0000
123.4336 7.0302 1.0000
123.5168 7.3057 1.0000
123.6000 5.3098 1.0000
123.6832 5.5383 1.0000
123.7664 6.9088 1.0000
123.8496 8.2680 1.0000
123.9328 4.2861 1.0000
124.0160 3.9643 1.0000
124.0992 4.0251 1.0000
124.1824 5.3079 1.0000
124.2656 8.3201 1.0000
124.3488 5.8864 1.0000
124.4320 2.9852 1.0000
124.5152 6.5684 1.0000
124.5984 6.8730 1.0000
124.6816 6.8932 1.0000
124.7648 3.9643 1.0000
124.8480 5.3055 1.0000
124.9312 7.3122 1.0000
125.0144 3.0468 1.0000
125.0976 7.4133 1.0000
125.1808 7.8630 1.0000
125.2640 4.2858 1.0000
125.3472 4.9724 1.0000
125.4304 3.9714 1.0000
125.5136 2.9177 1.0000
125.5968 6.0249 1.0000
125.6800 4.0189 1.0000
125.7632 10.9084 1.0000
125.8464 5.9811 1.0000
125.9296 0.9887 1.0000
126.0128 6.9878 1.0000
126.0960 6.9987 1.0000
126.1792 6.3765 1.0000
126.2624 3.0546 1.0000
126.3456 5.0286 1.0000
126.4288 10.3871 1.0000
126.5120 5.9350 1.0000
126.5952 6.6544 1.0000
126.6784 6.0211 1.0000
126.7616 7.8874 1.0000
126.8448 6.0380 1.0000
126.9280 3.2709 1.0000
127.0112 6.9115 1.0000
127.0944 8.1868 1.0000
127.1776 2.9545 1.0000
127.2608 6.7218 1.0000
127.3440 4.2820 1.0000
127.4272 2.6235 1.0000
127.5104 5.9753 1.0000
127.5936 4.8800 1.0000
127.6768 5.3163 1.0000
127.7600 3.9666 1.0000
127.8432 6.5974 1.0000
127.9264 2.2955 1.0000
128.0096 1.0065 1.0000
128.0928 5.9214 1.0000
128.1760 3.9897 1.0000
128.2592 0.9648 1.0000
128.3424 4.9990 1.0000
128.4256 5.9334 1.0000
128.5088 8.2298 1.0000
128.5920 5.2299 1.0000
128.6752 5.7187 1.0000
128.7584 3.0072 1.0000
128.8416 4.9862 1.0000
128.9248 5.0196 1.0000
129.0080 4.3426 1.0000
129.0912 9.2930 1.0000
129.1744 4.0178 1.0000
129.2576 4.3282 1.0000
129.3408 6.6186 1.0000
129.4240 6.2459 1.0000
129.5072 3.3413 1.0000
129.5904 3.3537 1.0000
129.6736 7.9364 1.0000
129.7568 6.2175 1.0000
129.8400 7.9303 1.0000
129.9232 5.6563 1.0000
130.0064 3.6679 1.0000
130.0896 4.9109 1.0000
130.1728 4.2918 1.0000
130.2560 6.6929 1.0000
130.3392 4.6567 1.0000
130.4224 5.9742 1.0000
130.5056 1.3635 1.0000
130.5888 4.3393 1.0000
130.6720 1.9775 1.0000
130.7552 5.3838 1.0000
130.8384 6.3432 1.0000
130.9216 3.0362 1.0000
131.0048 10.9243 1.0000
131.0880 5.9289 1.0000
131.1712 4.9296 1.0000
131.2544 9.9409 1.0000
131.3376 9.0022 1.0000
131.4208 3.9625 1.0000
131.5040 2.3176 1.0000
131.5872 1.9809 1.0000
131.6704 3.9926 1.0000
131.7536 5.9284 1.0000
131.8368 6.2880 1.0000
131.9200 8.5715 1.0000
132.0032 5.6588 1.0000
132.0864 3.9802 1.0000
132.1696 5.3130 1.0000
132.2528 7.0365 1.0000
132.3360 0.9750 1.0000
132.4192 12.3288 1.0000
132.5024 4.9386 1.0000
132.5856 5.4084 1.0000
132.6688 4.9679 1.0000
132.7520 3.9551 1.0000
132.8352 6.8928 1.0000
132.9184 5.3307 1.0000
133.0016 6.0962 1.0000
133.0848 5.3169 1.0000
133.1680 8.5927 1.0000
133.2512 1.9979 1.0000
133.3344 4.0083 1.0000
133.4176 6.0497 1.0000
133.5008 2.6650 1.0000
133.5840 8.5960 1.0000
133.6672 5.9459 1.0000
133.7504 5.2256 1.0000
133.8336 2.9880 1.0000
133.9168 5.2483 1.0000
134.0000 6.3556 1.0000
134.0832 7.9703 1.0000
134.1664 7.0590 1.0000
134.2496 2.9616 1.0000
134.3328 6.2394 1.0000
134.4160 9.2805 1.0000
134.4992 4.9798 1.0000
134.5824 8.0535 1.0000
134.6656 6.5950 1.0000
134.7488 0.9607 1.0000
134.8320 8.8983 1.0000
134.9152 3.2942 1.0000
134.9984 4.3403 1.0000
135.0816 6.3742 1.0000
135.1648 4.6406 1.0000
135.2480 6.3356 1.0000
135.3312 10.0113 1.0000
135.4144 7.2471 1.0000
135.4976 3.3162 1.0000
135.5808 3.9795 1.0000
135.6640 5.9067 1.0000
135.7472 6.2732 1.0000
135.8304 5.0031 1.0000
135.9136 8.3297 1.0000
135.9968 12.2895 1.0000
136.0800 9.9837 1.0000
136.1632 5.6905 1.0000
136.2464 9.9204 1.0000
136.3296 8.9206 1.0000
136.4128 6.8531 1.0000
136.4960 9.6537 1.0000
136.5792 5.9033 1.0000
136.6624 12.5805 1.0000
136.7456 4.9741 1.0000
136.8288 15.9215 1.0000
136.9120 18.2357 1.0000
136.9952 13.5432 1.0000
137.0784 40.0149 1.0000
137.1616 37.9500 1.0000
137.2448 63.0603 1.0000
137.3280 90.7210 1.0000
137.4112 125.4863 1.0000
137.4944 115.1796 1.0000
137.5776 90.5758 1.0000
137.6608 43.6259 1.0000
137.7440 27.5092 1.0000
137.8272 21.0903 1.0000
137.9104 22.5220 1.0000
137.9936 9.9248 1.0000
138.0768 7.5810 1.0000
138.1600 13.8848 1.0000
138.2432 10.0549 1.0000
138.3264 4.3960 1.0000
138.4096 5.6592 1.0000
138.4928 7.3067 1.0000
138.5760 6.0510 1.0000
138.6592 3.9440 1.0000
138.7424 9.3246 1.0000
138.8256 8.9832 1.0000
138.9088 5.3403 1.0000
138.9920 9.9406 1.0000
139.0752 8.3377 1.0000
139.1584 4.9981 1.0000
139.2416 4.3202 1.0000
139.3248 9.6140 1.0000
139.4080 5.9968 1.0000
139.4912 7.3479 1.0000
139.5744 4.9762 1.0000
139.6576 5.6823 1.0000
139.7408 13.6129 1.0000
139.8240 3.0261 1.0000
139.9072 7.2123 1.0000
139.9904 3.3116 1.0000
140.0736 5.6002 1.0000
140.1568 9.9431 1.0000
140.2400 5.9015 1.0000
140.3232 6.3108 1.0000
140.4064 5.9509 1.0000
140.4896 4.6174 1.0000
140.5728 2.2876 1.0000
140.6560 4.6233 1.0000
140.7392 13.5803 1.0000
140.8224 4.2773 1.0000
140.9056 8.3408 1.0000
140.9888 8.9679 1.0000
141.0720 6.9596 1.0000
141.1552 4.9815 1.0000
141.2384 9.0245 1.0000
141.3216 4.6696 1.0000
141.4048 6.8901 1.0000
141.4880 9.2398 1.0000
141.5712 5.1145 1.0000
141.6544 4.3411 1.0000
141.7376 10.8976 1.0000
141.8208 5.3413 1.0000
141.9040 5.9120 1.0000
141.9872 9.1590 1.0000
142.0704 2.9688 1.0000
142.1536 4.9335 1.0000
142.2368 6.3903 1.0000
142.3200 4.3408 1.0000
142.4032 10.3691 1.0000
142.4864 2.9867 1.0000
142.5696 1.3576 1.0000
142.6528 6.3012 1.0000
142.7360 7.3040 1.0000
142.8192 2.9748 1.0000
142.9024 9.2223 1.0000
142.9856 7.6488 1.0000
143.0688 12.6309 1.0000
143.1520 9.6791 1.0000
143.2352 8.2599 1.0000
143.3184 6.3282 1.0000
143.4016 8.0125 1.0000
143.4848 5.9144 1.0000
143.5680 5.9606 1.0000
143.6512 5.3690 1.0000
143.7344 7.3071 1.0000
143.8176 7.0712 1.0000
143.9008 5.2330 1.0000
143.9840 4.9129 1.0000
144.0672 5.9334 1.0000
144.1504 5.3009 1.0000
144.2336 6.3158 1.0000
144.3168 9.9274 1.0000
144.4000 5.0055 1.0000
144.4832 8.2271 1.0000
144.5664 7.9123 1.0000
144.6496 3.9822 1.0000
144.7328 8.6126 1.0000
144.8160 1.9926 1.0000
144.8992 5.0069 1.0000
144.9824 3.9289 1.0000
145.0656 7.2296 1.0000
145.1488 7.0569 1.0000
145.2320 2.9429 1.0000
145.3152 7.2868 1.0000
145.3984 7.2432 1.0000
145.4816 10.6512 1.0000
145.5648 6.9466 1.0000
145.6480 10.2045 1.0000
145.7312 7.9803 1.0000
145.8144 3.9687 1.0000
145.8976 3.9894 1.0000
145.9808 3.9435 1.0000
146.0640 4.2775 1.0000
146.1472 8.0149 1.0000
146.2304 4.9930 1.0000
146.3136 4.9331 1.0000
146.3968 7.6300 1.0000
146.4800 6.9676 1.0000
146.5632 2.9667 1.0000
146.6464 3.3222 1.0000
146.7296 7.9661 1.0000
146.8128 7.3024 1.0000
146.8960 3.3773 1.0000
146.9792 4.3268 1.0000
147.0624 3.3164 1.0000
147.1456 11.8939 1.0000
147.2288 10.2577 1.0000
147.3120 10.2580 1.0000
147.3952 2.9789 1.0000
147.4784 2.0062 1.0000
147.5616 5.0427 1.0000
147.6448 6.0122 1.0000
147.7280 3.2469 1.0000
147.8112 5.9122 1.0000
147.8944 7.2816 1.0000
147.9776 10.1316 1.0000
148.0608 4.2669 1.0000
148.1440 5.9624 1.0000
148.2272 3.0276 1.0000
148.3104 8.2642 1.0000
148.3936 6.2616 1.0000
148.4768 3.2765 1.0000
148.5600 8.0068 1.0000
148.6432 6.6130 1.0000
148.7264 3.9942 1.0000
148.8096 7.5878 1.0000
148.8928 4.9469 1.0000
148.9760 8.9870 1.0000
149.0592 6.9682 1.0000
149.1424 3.9287 1.0000
149.2256 5.9916 1.0000
149.3088 3.9803 1.0000
149.3920 8.4843 1.0000
149.4752 8.2387 1.0000
149.5584 5.3414 1.0000
149.6416 6.6295 1.0000
149.7248 3.9844 1.0000
149.8080 7.9310 1.0000
149.8912 13.1465 1.0000
149.9744 3.9266 1.0000
149.9952 6.3685 1.0000